_id,rt,trial_type,trial_index,time_elapsed,internal_node_id,subject,study_id,session_id,__v,response,pic,stimulus,block
67a97ea1d14f19965b60d0d7,7319,instructions,0,7320,0,61085f0fd327cffcea61a696,676a5c1061b4a84202022a46,67a97e1eaeb417c544370176,0,,,,
67a97ea1d14f19965b60d0d9,5928,instructions,1,13248,0,61085f0fd327cffcea61a696,676a5c1061b4a84202022a46,67a97e1eaeb417c544370176,0,,,,
67a97ea1d14f19965b60d0db,2389,image-slider-response,2,15639,0,61085f0fd327cffcea61a696,676a5c1061b4a84202022a46,67a97e1eaeb417c544370176,0,0,circle.png,circle.png,practice block
67a97ea1d14f19965b60d0dd,2082,html-button-response,3,17722,0,61085f0fd327cffcea61a696,676a5c1061b4a84202022a46,67a97e1eaeb417c544370176,0,0,,<p style='color:green; font-size:22px; font-weight:bold;'>✅ Correct!</p>\n               <p style='font-size:18px; color:#333;'>Remember: Move the slider <strong>left</strong> for simple objects.</p>,
67a97ea1d14f19965b60d0df,968,html-button-response,5,24724,0,61085f0fd327cffcea61a696,676a5c1061b4a84202022a46,67a97e1eaeb417c544370176,0,0,,<p style='color:green; font-size:22px; font-weight:bold;'>✅ Correct!</p>\n               <p style='font-size:18px; color:#333;'>Remember: Move the slider <strong>right</strong> for complex objects.</p>,
67a97ea1d14f19965b60d0e1,6033,image-slider-response,4,23756,0,61085f0fd327cffcea61a696,676a5c1061b4a84202022a46,67a97e1eaeb417c544370176,0,78,concave.png,concave.png,practice block
67a97ea1d14f19965b60d0e3,3431,image-slider-response,6,28155,0,61085f0fd327cffcea61a696,676a5c1061b4a84202022a46,67a97e1eaeb417c544370176,0,54,heptagon.png,heptagon.png,practice block
67a97ea1d14f19965b60d0e5,727,html-button-response,7,28883,0,61085f0fd327cffcea61a696,676a5c1061b4a84202022a46,67a97e1eaeb417c544370176,0,0,,<p style='color:green; font-size:22px; font-weight:bold;'>✅ Correct!</p>\n               <p style='font-size:18px; color:#333;'>Remember: Move the slider <strong>right</strong> for complex objects.</p>,
67a97ea1d14f19965b60d0e7,867,instructions,10,34844,0,61085f0fd327cffcea61a696,676a5c1061b4a84202022a46,67a97e1eaeb417c544370176,0,,,,
67a97ea1d14f19965b60d0e9,4294,image-slider-response,8,33177,0,61085f0fd327cffcea61a696,676a5c1061b4a84202022a46,67a97e1eaeb417c544370176,0,11,square.png,square.png,practice block
67a97ea1d14f19965b60d0eb,798,html-button-response,9,33976,0,61085f0fd327cffcea61a696,676a5c1061b4a84202022a46,67a97e1eaeb417c544370176,0,0,,<p style='color:green; font-size:22px; font-weight:bold;'>✅ Correct!</p>\n               <p style='font-size:18px; color:#333;'>Remember: Move the slider <strong>left</strong> for simple objects.</p>,
67a97ea1d14f19965b60d0ed,4072,image-slider-response,11,38916,0,61085f0fd327cffcea61a696,676a5c1061b4a84202022a46,67a97e1eaeb417c544370176,0,83,list4/15- 2021-10-074- A.png,list4/15- 2021-10-074- A.png,blockpics
67a97ea1d14f19965b60d0ef,2772,image-slider-response,12,41689,0,61085f0fd327cffcea61a696,676a5c1061b4a84202022a46,67a97e1eaeb417c544370176,0,79,list4/4-68-9-074-AB.png,list4/4-68-9-074-AB.png,blockpics
67a97ea1d14f19965b60d0f1,3542,image-slider-response,13,45232,0,61085f0fd327cffcea61a696,676a5c1061b4a84202022a46,67a97e1eaeb417c544370176,0,59,list4/22-89-13-031-AB.png,list4/22-89-13-031-AB.png,blockpics
67a97ea1d14f19965b60d0f3,3739,image-slider-response,15,52170,0,61085f0fd327cffcea61a696,676a5c1061b4a84202022a46,67a97e1eaeb417c544370176,0,48,list4/25-4-5-printedmaterial007-A.png,list4/25-4-5-printedmaterial007-A.png,blockpics
67a97ea1d14f19965b60d0f5,3197,image-slider-response,14,48430,0,61085f0fd327cffcea61a696,676a5c1061b4a84202022a46,67a97e1eaeb417c544370176,0,46,list4/8-25-8-007-AB.png,list4/8-25-8-007-AB.png,blockpics
67a97ea1d14f19965b60d0f7,2546,image-slider-response,17,57094,0,61085f0fd327cffcea61a696,676a5c1061b4a84202022a46,67a97e1eaeb417c544370176,0,61,list4/21-82-9-031-AB.png,list4/21-82-9-031-AB.png,blockpics
67a97ea1d14f19965b60d0f9,2579,image-slider-response,18,59674,0,61085f0fd327cffcea61a696,676a5c1061b4a84202022a46,67a97e1eaeb417c544370176,0,63,list4/14-59-9-007-AB.png,list4/14-59-9-007-AB.png,blockpics
67a97ea1d14f19965b60d0fb,2376,image-slider-response,16,54547,0,61085f0fd327cffcea61a696,676a5c1061b4a84202022a46,67a97e1eaeb417c544370176,0,63,list4/16-53-11-031-AB.png,list4/16-53-11-031-AB.png,blockpics
67a97ea1d14f19965b60d0fd,3475,image-slider-response,19,63150,0,61085f0fd327cffcea61a696,676a5c1061b4a84202022a46,67a97e1eaeb417c544370176,0,36,list4/26-276-3-metal007-AB.png,list4/26-276-3-metal007-AB.png,blockpics
67a97ea1d14f19965b60d0ff,4379,image-slider-response,20,67530,0,61085f0fd327cffcea61a696,676a5c1061b4a84202022a46,67a97e1eaeb417c544370176,0,45,list4/20-64-6-metal007-AB.png,list4/20-64-6-metal007-AB.png,blockpics
67a97ea1d14f19965b60d101,2730,image-slider-response,22,72327,0,61085f0fd327cffcea61a696,676a5c1061b4a84202022a46,67a97e1eaeb417c544370176,0,47,list4/10-3-8-031-AB.png,list4/10-3-8-031-AB.png,blockpics
67a97ea1d14f19965b60d103,2066,image-slider-response,21,69597,0,61085f0fd327cffcea61a696,676a5c1061b4a84202022a46,67a97e1eaeb417c544370176,0,73,list4/9-27-9-074-AB.png,list4/9-27-9-074-AB.png,blockpics
67a97ea1d14f19965b60d105,2961,image-slider-response,23,75289,0,61085f0fd327cffcea61a696,676a5c1061b4a84202022a46,67a97e1eaeb417c544370176,0,31,list4/2-42-5-metal007-AB.png,list4/2-42-5-metal007-AB.png,blockpics
67a97ea1d14f19965b60d107,2211,image-slider-response,24,77500,0,61085f0fd327cffcea61a696,676a5c1061b4a84202022a46,67a97e1eaeb417c544370176,0,57,list4/18-1022-2-corrugatedsteel-A.png,list4/18-1022-2-corrugatedsteel-A.png,blockpics
67a97ea1d14f19965b60d109,2168,image-slider-response,25,79668,0,61085f0fd327cffcea61a696,676a5c1061b4a84202022a46,67a97e1eaeb417c544370176,0,58,list4/30-38-4-corrugatedsteel-A.png,list4/30-38-4-corrugatedsteel-A.png,blockpics
67a97ea1d14f19965b60d10b,3615,image-slider-response,26,83284,0,61085f0fd327cffcea61a696,676a5c1061b4a84202022a46,67a97e1eaeb417c544370176,0,58,list4/17-224-12-fabric05-AB.png,list4/17-224-12-fabric05-AB.png,blockpics
67a97ea1d14f19965b60d10d,1909,image-slider-response,28,88329,0,61085f0fd327cffcea61a696,676a5c1061b4a84202022a46,67a97e1eaeb417c544370176,0,44,list4/28-2000-7-031-AB.png,list4/28-2000-7-031-AB.png,blockpics
67a97ea1d14f19965b60d10f,3135,image-slider-response,27,86420,0,61085f0fd327cffcea61a696,676a5c1061b4a84202022a46,67a97e1eaeb417c544370176,0,54,list4/6-1017-5-corrugatedsteel-A.png,list4/6-1017-5-corrugatedsteel-A.png,blockpics
67a97ea1d14f19965b60d111,2391,image-slider-response,31,97153,0,61085f0fd327cffcea61a696,676a5c1061b4a84202022a46,67a97e1eaeb417c544370176,0,62,list4/24-32-3-corrugatedsteel-A.png,list4/24-32-3-corrugatedsteel-A.png,blockpics
67a97ea1d14f19965b60d113,4509,image-slider-response,29,92839,0,61085f0fd327cffcea61a696,676a5c1061b4a84202022a46,67a97e1eaeb417c544370176,0,61,list4/27-5-5-074-AB.png,list4/27-5-5-074-AB.png,blockpics
67a97ea1d14f19965b60d115,1921,image-slider-response,30,94761,0,61085f0fd327cffcea61a696,676a5c1061b4a84202022a46,67a97e1eaeb417c544370176,0,46,list4/19-1024-4-printedmaterial007-A.png,list4/19-1024-4-printedmaterial007-A.png,blockpics
67a97ea1d14f19965b60d117,3914,image-slider-response,32,101068,0,61085f0fd327cffcea61a696,676a5c1061b4a84202022a46,67a97e1eaeb417c544370176,0,57,list4/11-34-9-fabric05-AB.png,list4/11-34-9-fabric05-AB.png,blockpics
67a97ea1d14f19965b60d119,2187,image-slider-response,33,103255,0,61085f0fd327cffcea61a696,676a5c1061b4a84202022a46,67a97e1eaeb417c544370176,0,58,list4/3-1016-6-074-AB.png,list4/3-1016-6-074-AB.png,blockpics
67a97ea1d14f19965b60d11b,3632,image-slider-response,34,106889,0,61085f0fd327cffcea61a696,676a5c1061b4a84202022a46,67a97e1eaeb417c544370176,0,77,list4/23-69-16-fabric05-AB.png,list4/23-69-16-fabric05-AB.png,blockpics
67a97ea1d14f19965b60d11d,1854,image-slider-response,35,108743,0,61085f0fd327cffcea61a696,676a5c1061b4a84202022a46,67a97e1eaeb417c544370176,0,52,list4/29-17-7-fabric05-AB.png,list4/29-17-7-fabric05-AB.png,blockpics
67a97ea1d14f19965b60d11f,1823,image-slider-response,36,110568,0,61085f0fd327cffcea61a696,676a5c1061b4a84202022a46,67a97e1eaeb417c544370176,0,56,list4/5-13-9-fabric05-AB.png,list4/5-13-9-fabric05-AB.png,blockpics
67a97ea1d14f19965b60d121,1949,image-slider-response,37,112518,0,61085f0fd327cffcea61a696,676a5c1061b4a84202022a46,67a97e1eaeb417c544370176,0,59,list4/7-15-8-printedmaterial007-A.png,list4/7-15-8-printedmaterial007-A.png,blockpics
67a97ea1d14f19965b60d123,1599,image-slider-response,38,114117,0,61085f0fd327cffcea61a696,676a5c1061b4a84202022a46,67a97e1eaeb417c544370176,0,62,list4/12-87-7-corrugatedsteel-A.png,list4/12-87-7-corrugatedsteel-A.png,blockpics
67a97ea1d14f19965b60d125,2647,image-slider-response,39,116765,0,61085f0fd327cffcea61a696,676a5c1061b4a84202022a46,67a97e1eaeb417c544370176,0,54,list4/13-57-6-printedmaterial007-A.png,list4/13-57-6-printedmaterial007-A.png,blockpics
67a97ea1d14f19965b60d127,3288,image-slider-response,40,120053,0,61085f0fd327cffcea61a696,676a5c1061b4a84202022a46,67a97e1eaeb417c544370176,0,30,list4/1-1016-1-paintedmetal007-AB.png,list4/1-1016-1-paintedmetal007-AB.png,blockpics
67a97ea1d14f19965b60d129,1824,instructions,41,121877,0,61085f0fd327cffcea61a696,676a5c1061b4a84202022a46,67a97e1eaeb417c544370176,0,,,,
67a97ee9d14f19965b60d12b,2116,instructions,0,2118,0,5e7f64a99b18e463f74b0c91,676a5c1061b4a84202022a46,67a97e2d51a26b1f6d6aadaf,0,,,,
67a97ee9d14f19965b60d12d,7115,instructions,1,9234,0,5e7f64a99b18e463f74b0c91,676a5c1061b4a84202022a46,67a97e2d51a26b1f6d6aadaf,0,,,,
67a97ee9d14f19965b60d12f,5133,image-slider-response,6,27101,0,5e7f64a99b18e463f74b0c91,676a5c1061b4a84202022a46,67a97e2d51a26b1f6d6aadaf,0,29,heptagon.png,heptagon.png,practice block
67a97ee9d14f19965b60d131,4895,image-slider-response,2,14134,0,5e7f64a99b18e463f74b0c91,676a5c1061b4a84202022a46,67a97e2d51a26b1f6d6aadaf,0,8,square.png,square.png,practice block
67a97ee9d14f19965b60d133,3716,image-slider-response,4,20584,0,5e7f64a99b18e463f74b0c91,676a5c1061b4a84202022a46,67a97e2d51a26b1f6d6aadaf,0,2,circle.png,circle.png,practice block
67a97ee9d14f19965b60d135,1381,html-button-response,5,21967,0,5e7f64a99b18e463f74b0c91,676a5c1061b4a84202022a46,67a97e2d51a26b1f6d6aadaf,0,0,,<p style='color:green; font-size:22px; font-weight:bold;'>✅ Correct!</p>\n               <p style='font-size:18px; color:#333;'>Remember: Move the slider <strong>left</strong> for simple objects.</p>,
67a97ee9d14f19965b60d137,2730,html-button-response,3,16867,0,5e7f64a99b18e463f74b0c91,676a5c1061b4a84202022a46,67a97e2d51a26b1f6d6aadaf,0,0,,<p style='color:green; font-size:22px; font-weight:bold;'>✅ Correct!</p>\n               <p style='font-size:18px; color:#333;'>Remember: Move the slider <strong>left</strong> for simple objects.</p>,
67a97ee9d14f19965b60d139,5298,image-slider-response,8,33817,0,5e7f64a99b18e463f74b0c91,676a5c1061b4a84202022a46,67a97e2d51a26b1f6d6aadaf,0,89,concave.png,concave.png,practice block
67a97ee9d14f19965b60d13b,1414,html-button-response,7,28517,0,5e7f64a99b18e463f74b0c91,676a5c1061b4a84202022a46,67a97e2d51a26b1f6d6aadaf,0,0,,<p style='color:red; font-size:22px; font-weight:bold;'>❌ Oops! Try again.</p>\n               <p style='font-size:18px; color:#333;'>You should slide <strong>right</strong> for complex objects.</p>,
67a97ee9d14f19965b60d13d,882,html-button-response,9,34700,0,5e7f64a99b18e463f74b0c91,676a5c1061b4a84202022a46,67a97e2d51a26b1f6d6aadaf,0,0,,<p style='color:green; font-size:22px; font-weight:bold;'>✅ Correct!</p>\n               <p style='font-size:18px; color:#333;'>Remember: Move the slider <strong>right</strong> for complex objects.</p>,
67a97ee9d14f19965b60d13f,1632,instructions,10,36333,0,5e7f64a99b18e463f74b0c91,676a5c1061b4a84202022a46,67a97e2d51a26b1f6d6aadaf,0,,,,
67a97ee9d14f19965b60d141,4997,image-slider-response,11,41333,0,5e7f64a99b18e463f74b0c91,676a5c1061b4a84202022a46,67a97e2d51a26b1f6d6aadaf,0,87,list3/22-89-13-074-AB.png,list3/22-89-13-074-AB.png,blockpics
67a97eead14f19965b60d143,4565,image-slider-response,12,45901,0,5e7f64a99b18e463f74b0c91,676a5c1061b4a84202022a46,67a97e2d51a26b1f6d6aadaf,0,80,list3/19-1024-4-corrugatedsteel-A.png,list3/19-1024-4-corrugatedsteel-A.png,blockpics
67a97eead14f19965b60d145,3918,image-slider-response,13,49821,0,5e7f64a99b18e463f74b0c91,676a5c1061b4a84202022a46,67a97e2d51a26b1f6d6aadaf,0,70,list3/3-1016-6-printedmaterial007-AB.png,list3/3-1016-6-printedmaterial007-AB.png,blockpics
67a97eead14f19965b60d147,4695,image-slider-response,14,54517,0,5e7f64a99b18e463f74b0c91,676a5c1061b4a84202022a46,67a97e2d51a26b1f6d6aadaf,0,88,list3/16-53-11-074-AB.png,list3/16-53-11-074-AB.png,blockpics
67a97eead14f19965b60d149,3965,image-slider-response,15,58484,0,5e7f64a99b18e463f74b0c91,676a5c1061b4a84202022a46,67a97e2d51a26b1f6d6aadaf,0,61,list3/30-38-4-fabric05-AB.png,list3/30-38-4-fabric05-AB.png,blockpics
67a97eead14f19965b60d14b,5764,image-slider-response,16,64250,0,5e7f64a99b18e463f74b0c91,676a5c1061b4a84202022a46,67a97e2d51a26b1f6d6aadaf,0,56,list3/2-42-5-printedmaterial007-A.png,list3/2-42-5-printedmaterial007-A.png,blockpics
67a97eead14f19965b60d14d,4981,image-slider-response,17,69233,0,5e7f64a99b18e463f74b0c91,676a5c1061b4a84202022a46,67a97e2d51a26b1f6d6aadaf,0,88,list3/23-69-16-031-AB.png,list3/23-69-16-031-AB.png,blockpics
67a97eead14f19965b60d14f,4334,image-slider-response,18,73568,0,5e7f64a99b18e463f74b0c91,676a5c1061b4a84202022a46,67a97e2d51a26b1f6d6aadaf,0,83,list3/11-34-9-031-AB.png,list3/11-34-9-031-AB.png,blockpics
67a97eead14f19965b60d151,4397,image-slider-response,19,77967,0,5e7f64a99b18e463f74b0c91,676a5c1061b4a84202022a46,67a97e2d51a26b1f6d6aadaf,0,89,list3/5-13-9-074-AB.png,list3/5-13-9-074-AB.png,blockpics
67a97eead14f19965b60d153,5998,image-slider-response,20,83967,0,5e7f64a99b18e463f74b0c91,676a5c1061b4a84202022a46,67a97e2d51a26b1f6d6aadaf,0,67,list3/29-17-7-031-AB.png,list3/29-17-7-031-AB.png,blockpics
67a97eead14f19965b60d155,5031,image-slider-response,21,89000,0,5e7f64a99b18e463f74b0c91,676a5c1061b4a84202022a46,67a97e2d51a26b1f6d6aadaf,0,82,list3/10-3-8-074-AB.png,list3/10-3-8-074-AB.png,blockpics
67a97eead14f19965b60d157,3150,image-slider-response,22,92151,0,5e7f64a99b18e463f74b0c91,676a5c1061b4a84202022a46,67a97e2d51a26b1f6d6aadaf,0,63,list3/20-64-6-printedmaterial007-A.png,list3/20-64-6-printedmaterial007-A.png,blockpics
67a97eead14f19965b60d159,8799,image-slider-response,24,105685,0,5e7f64a99b18e463f74b0c91,676a5c1061b4a84202022a46,67a97e2d51a26b1f6d6aadaf,0,67,list3/8-25-8-printedmaterial007-A.png,list3/8-25-8-printedmaterial007-A.png,blockpics
67a97eead14f19965b60d15b,3400,image-slider-response,36,158634,0,5e7f64a99b18e463f74b0c91,676a5c1061b4a84202022a46,67a97e2d51a26b1f6d6aadaf,0,57,list3/13-57-6-corrugatedsteel-A.png,list3/13-57-6-corrugatedsteel-A.png,blockpics
67a9872ad14f19965b60d15d,5359,instructions,0,5361,0,61bb389140db417c1a138ca1,676a5c1061b4a84202022a46,67a984c3c4d1f9c6c93617b7,0,,,,
67a9872ad14f19965b60d15f,7744,instructions,1,13106,0,61bb389140db417c1a138ca1,676a5c1061b4a84202022a46,67a984c3c4d1f9c6c93617b7,0,,,,
67a9872ad14f19965b60d161,6352,image-slider-response,2,19464,0,61bb389140db417c1a138ca1,676a5c1061b4a84202022a46,67a984c3c4d1f9c6c93617b7,0,58,concave.png,concave.png,practice block
67a9872ad14f19965b60d163,3089,html-button-response,3,22555,0,61bb389140db417c1a138ca1,676a5c1061b4a84202022a46,67a984c3c4d1f9c6c93617b7,0,0,,<p style='color:green; font-size:22px; font-weight:bold;'>✅ Correct!</p>\n               <p style='font-size:18px; color:#333;'>Remember: Move the slider <strong>right</strong> for complex objects.</p>,
67a9872ad14f19965b60d165,5619,image-slider-response,4,28176,0,61bb389140db417c1a138ca1,676a5c1061b4a84202022a46,67a984c3c4d1f9c6c93617b7,0,1,circle.png,circle.png,practice block
67a9872ad14f19965b60d167,1402,html-button-response,5,29579,0,61bb389140db417c1a138ca1,676a5c1061b4a84202022a46,67a984c3c4d1f9c6c93617b7,0,0,,<p style='color:green; font-size:22px; font-weight:bold;'>✅ Correct!</p>\n               <p style='font-size:18px; color:#333;'>Remember: Move the slider <strong>left</strong> for simple objects.</p>,
67a9872bd14f19965b60d169,4346,image-slider-response,6,33927,0,61bb389140db417c1a138ca1,676a5c1061b4a84202022a46,67a984c3c4d1f9c6c93617b7,0,2,square.png,square.png,practice block
67a9872bd14f19965b60d16b,5194,image-slider-response,8,40481,0,61bb389140db417c1a138ca1,676a5c1061b4a84202022a46,67a984c3c4d1f9c6c93617b7,0,46,heptagon.png,heptagon.png,practice block
67a9872bd14f19965b60d16d,1357,html-button-response,7,35285,0,61bb389140db417c1a138ca1,676a5c1061b4a84202022a46,67a984c3c4d1f9c6c93617b7,0,0,,<p style='color:green; font-size:22px; font-weight:bold;'>✅ Correct!</p>\n               <p style='font-size:18px; color:#333;'>Remember: Move the slider <strong>left</strong> for simple objects.</p>,
67a9872bd14f19965b60d16f,1592,html-button-response,9,42075,0,61bb389140db417c1a138ca1,676a5c1061b4a84202022a46,67a984c3c4d1f9c6c93617b7,0,0,,<p style='color:red; font-size:22px; font-weight:bold;'>❌ Oops! Try again.</p>\n               <p style='font-size:18px; color:#333;'>You should slide <strong>right</strong> for complex objects.</p>,
67a9872bd14f19965b60d171,1503,instructions,10,43579,0,61bb389140db417c1a138ca1,676a5c1061b4a84202022a46,67a984c3c4d1f9c6c93617b7,0,,,,
67a9872bd14f19965b60d173,3839,image-slider-response,11,47420,0,61bb389140db417c1a138ca1,676a5c1061b4a84202022a46,67a984c3c4d1f9c6c93617b7,0,56,list6/2-42-5-031-AB.png,list6/2-42-5-031-AB.png,blockpics
67a9872bd14f19965b60d175,3166,image-slider-response,12,50588,0,61bb389140db417c1a138ca1,676a5c1061b4a84202022a46,67a984c3c4d1f9c6c93617b7,0,62,list6/27-5-5-fabric05-AB.png,list6/27-5-5-fabric05-AB.png,blockpics
67a9872bd14f19965b60d177,5199,image-slider-response,13,55789,0,61bb389140db417c1a138ca1,676a5c1061b4a84202022a46,67a984c3c4d1f9c6c93617b7,0,52,list6/6-1017-5-metal007-AB.png,list6/6-1017-5-metal007-AB.png,blockpics
67a9872bd14f19965b60d179,3284,image-slider-response,14,59075,0,61bb389140db417c1a138ca1,676a5c1061b4a84202022a46,67a984c3c4d1f9c6c93617b7,0,52,list6/13-57-6-074-AB.png,list6/13-57-6-074-AB.png,blockpics
67a9872bd14f19965b60d17b,3677,image-slider-response,15,62754,0,61bb389140db417c1a138ca1,676a5c1061b4a84202022a46,67a984c3c4d1f9c6c93617b7,0,59,list6/3-1016-6-fabric05-AB.png,list6/3-1016-6-fabric05-AB.png,blockpics
67a9872bd14f19965b60d17d,3819,image-slider-response,17,71720,0,61bb389140db417c1a138ca1,676a5c1061b4a84202022a46,67a984c3c4d1f9c6c93617b7,0,59,list6/4-68-9-corrugatedsteel-A.png,list6/4-68-9-corrugatedsteel-A.png,blockpics
67a9872bd14f19965b60d17f,5142,image-slider-response,16,67899,0,61bb389140db417c1a138ca1,676a5c1061b4a84202022a46,67a984c3c4d1f9c6c93617b7,0,78,list6/11-34-9-printedmaterial007-A.png,list6/11-34-9-printedmaterial007-A.png,blockpics
67a9872bd14f19965b60d181,3971,image-slider-response,18,75692,0,61bb389140db417c1a138ca1,676a5c1061b4a84202022a46,67a984c3c4d1f9c6c93617b7,0,65,list6/17-224-12-printedmaterial007-A.png,list6/17-224-12-printedmaterial007-A.png,blockpics
67a9872bd14f19965b60d183,4875,image-slider-response,19,80569,0,61bb389140db417c1a138ca1,676a5c1061b4a84202022a46,67a984c3c4d1f9c6c93617b7,0,45,list6/7-15-8-074-A.png,list6/7-15-8-074-A.png,blockpics
67a9872bd14f19965b60d185,3300,image-slider-response,20,83870,0,61bb389140db417c1a138ca1,676a5c1061b4a84202022a46,67a984c3c4d1f9c6c93617b7,0,48,list6/30-38-4-metal007-AB.png,list6/30-38-4-metal007-AB.png,blockpics
67a9872bd14f19965b60d187,4862,image-slider-response,22,92752,0,61bb389140db417c1a138ca1,676a5c1061b4a84202022a46,67a984c3c4d1f9c6c93617b7,0,52,list6/20-64-6-031-AB.png,list6/20-64-6-031-AB.png,blockpics
67a9872bd14f19965b60d189,4017,image-slider-response,21,87889,0,61bb389140db417c1a138ca1,676a5c1061b4a84202022a46,67a984c3c4d1f9c6c93617b7,0,50,list6/21-82-9-fabric05-AB.png,list6/21-82-9-fabric05-AB.png,blockpics
67a9872bd14f19965b60d18b,4016,image-slider-response,23,96770,0,61bb389140db417c1a138ca1,676a5c1061b4a84202022a46,67a984c3c4d1f9c6c93617b7,0,43,list6/16-53-11-corrugatedsteel-A.png,list6/16-53-11-corrugatedsteel-A.png,blockpics
67a9872bd14f19965b60d18d,13059,image-slider-response,24,109831,0,61bb389140db417c1a138ca1,676a5c1061b4a84202022a46,67a984c3c4d1f9c6c93617b7,0,26,list6/24-32-3-metal007-AB.png,list6/24-32-3-metal007-AB.png,blockpics
67a9872bd14f19965b60d18f,3091,image-slider-response,25,112925,0,61bb389140db417c1a138ca1,676a5c1061b4a84202022a46,67a984c3c4d1f9c6c93617b7,0,52,list6/9-27-9-fabric05-AB.png,list6/9-27-9-fabric05-AB.png,blockpics
67a9872bd14f19965b60d191,3569,image-slider-response,26,116495,0,61bb389140db417c1a138ca1,676a5c1061b4a84202022a46,67a984c3c4d1f9c6c93617b7,0,13,list6/1-1016-1-074-AB.png,list6/1-1016-1-074-AB.png,blockpics
67a9872bd14f19965b60d193,4482,image-slider-response,27,120979,0,61bb389140db417c1a138ca1,676a5c1061b4a84202022a46,67a984c3c4d1f9c6c93617b7,0,54,list6/28-2000-7-corrugatedsteel-A.png,list6/28-2000-7-corrugatedsteel-A.png,blockpics
67a9872bd14f19965b60d195,4863,image-slider-response,28,125844,0,61bb389140db417c1a138ca1,676a5c1061b4a84202022a46,67a984c3c4d1f9c6c93617b7,0,39,list6/26-276-3-031-AB.png,list6/26-276-3-031-AB.png,blockpics
67a9872bd14f19965b60d197,4317,image-slider-response,29,130162,0,61bb389140db417c1a138ca1,676a5c1061b4a84202022a46,67a984c3c4d1f9c6c93617b7,0,55,list6/22-89-13-corrugatedsteel-A.png,list6/22-89-13-corrugatedsteel-A.png,blockpics
67a9872bd14f19965b60d199,6835,image-slider-response,30,137000,0,61bb389140db417c1a138ca1,676a5c1061b4a84202022a46,67a984c3c4d1f9c6c93617b7,0,53,list6/23-69-16-printedmaterial007-A.png,list6/23-69-16-printedmaterial007-A.png,blockpics
67a9872bd14f19965b60d19b,3735,image-slider-response,31,140736,0,61bb389140db417c1a138ca1,676a5c1061b4a84202022a46,67a984c3c4d1f9c6c93617b7,0,45,list6/19-1024-4-074-AB.png,list6/19-1024-4-074-AB.png,blockpics
67a9872bd14f19965b60d19d,6430,image-slider-response,32,147168,0,61bb389140db417c1a138ca1,676a5c1061b4a84202022a46,67a984c3c4d1f9c6c93617b7,0,38,list6/25-4-5-074-AB.png,list6/25-4-5-074-AB.png,blockpics
67a9872bd14f19965b60d19f,3471,image-slider-response,33,150641,0,61bb389140db417c1a138ca1,676a5c1061b4a84202022a46,67a984c3c4d1f9c6c93617b7,0,52,list6/10-3-8-printedmaterial007-A.png,list6/10-3-8-printedmaterial007-A.png,blockpics
67a9872bd14f19965b60d1a1,3257,image-slider-response,34,153900,0,61bb389140db417c1a138ca1,676a5c1061b4a84202022a46,67a984c3c4d1f9c6c93617b7,0,52,list6/8-25-8-031-AB.png,list6/8-25-8-031-AB.png,blockpics
67a9872bd14f19965b60d1a3,2965,image-slider-response,35,156867,0,61bb389140db417c1a138ca1,676a5c1061b4a84202022a46,67a984c3c4d1f9c6c93617b7,0,41,list6/12-87-7-007-AB.png,list6/12-87-7-007-AB.png,blockpics
67a9872bd14f19965b60d1a5,4505,image-slider-response,36,161373,0,61bb389140db417c1a138ca1,676a5c1061b4a84202022a46,67a984c3c4d1f9c6c93617b7,0,50,list6/15- 2021-10-05- AB.png,list6/15- 2021-10-05- AB.png,blockpics
67a9872bd14f19965b60d1a7,2772,image-slider-response,37,164148,0,61bb389140db417c1a138ca1,676a5c1061b4a84202022a46,67a984c3c4d1f9c6c93617b7,0,50,list6/5-13-9-printed material 007-A.png,list6/5-13-9-printed material 007-A.png,blockpics
67a9872bd14f19965b60d1a9,3398,image-slider-response,38,167547,0,61bb389140db417c1a138ca1,676a5c1061b4a84202022a46,67a984c3c4d1f9c6c93617b7,0,48,list6/29-17-7-printedmaterial007-A.png,list6/29-17-7-printedmaterial007-A.png,blockpics
67a9872bd14f19965b60d1ab,3283,image-slider-response,39,170832,0,61bb389140db417c1a138ca1,676a5c1061b4a84202022a46,67a984c3c4d1f9c6c93617b7,0,45,list6/14-59-9-031-AB.png,list6/14-59-9-031-AB.png,blockpics
67a9872bd14f19965b60d1ad,3146,image-slider-response,40,173980,0,61bb389140db417c1a138ca1,676a5c1061b4a84202022a46,67a984c3c4d1f9c6c93617b7,0,35,list6/18-1022-2-metal007-AB.png,list6/18-1022-2-metal007-AB.png,blockpics
67a9872bd14f19965b60d1af,1807,instructions,41,175789,0,61bb389140db417c1a138ca1,676a5c1061b4a84202022a46,67a984c3c4d1f9c6c93617b7,0,,,,
67a98835d14f19965b60d1b1,106461,instructions,0,106463,0,66b30d310ddfa04ca4274bf1,676a5c1061b4a84202022a46,67a9870009e9bc04b7ea5ad9,0,,,,
67a98835d14f19965b60d1b5,3468,html-button-response,3,151866,0,66b30d310ddfa04ca4274bf1,676a5c1061b4a84202022a46,67a9870009e9bc04b7ea5ad9,0,0,,<p style='color:green; font-size:22px; font-weight:bold;'>✅ Correct!</p>\n               <p style='font-size:18px; color:#333;'>Remember: Move the slider <strong>right</strong> for complex objects.</p>,
67a98835d14f19965b60d1b3,31242,instructions,1,137706,0,66b30d310ddfa04ca4274bf1,676a5c1061b4a84202022a46,67a9870009e9bc04b7ea5ad9,0,,,,
67a98835d14f19965b60d1b7,10685,image-slider-response,2,148396,0,66b30d310ddfa04ca4274bf1,676a5c1061b4a84202022a46,67a9870009e9bc04b7ea5ad9,0,82,heptagon.png,heptagon.png,practice block
67a98835d14f19965b60d1b9,4781,image-slider-response,4,156648,0,66b30d310ddfa04ca4274bf1,676a5c1061b4a84202022a46,67a9870009e9bc04b7ea5ad9,0,0,square.png,square.png,practice block
67a98835d14f19965b60d1bd,3659,image-slider-response,6,161341,0,66b30d310ddfa04ca4274bf1,676a5c1061b4a84202022a46,67a9870009e9bc04b7ea5ad9,0,97,concave.png,concave.png,practice block
67a98835d14f19965b60d1bb,1032,html-button-response,5,157681,0,66b30d310ddfa04ca4274bf1,676a5c1061b4a84202022a46,67a9870009e9bc04b7ea5ad9,0,0,,<p style='color:green; font-size:22px; font-weight:bold;'>✅ Correct!</p>\n               <p style='font-size:18px; color:#333;'>Remember: Move the slider <strong>left</strong> for simple objects.</p>,
67a98836d14f19965b60d1bf,1668,instructions,10,168677,0,66b30d310ddfa04ca4274bf1,676a5c1061b4a84202022a46,67a9870009e9bc04b7ea5ad9,0,,,,
67a98836d14f19965b60d1c1,6215,image-slider-response,11,174894,0,66b30d310ddfa04ca4274bf1,676a5c1061b4a84202022a46,67a9870009e9bc04b7ea5ad9,0,91,list4/20-64-6-metal007-AB.png,list4/20-64-6-metal007-AB.png,blockpics
67a98836d14f19965b60d1c3,3114,image-slider-response,8,165617,0,66b30d310ddfa04ca4274bf1,676a5c1061b4a84202022a46,67a9870009e9bc04b7ea5ad9,0,0,circle.png,circle.png,practice block
67a98836d14f19965b60d1c5,1158,html-button-response,7,162501,0,66b30d310ddfa04ca4274bf1,676a5c1061b4a84202022a46,67a9870009e9bc04b7ea5ad9,0,0,,<p style='color:green; font-size:22px; font-weight:bold;'>✅ Correct!</p>\n               <p style='font-size:18px; color:#333;'>Remember: Move the slider <strong>right</strong> for complex objects.</p>,
67a98836d14f19965b60d1c7,7427,image-slider-response,12,182324,0,66b30d310ddfa04ca4274bf1,676a5c1061b4a84202022a46,67a9870009e9bc04b7ea5ad9,0,75,list4/26-276-3-metal007-AB.png,list4/26-276-3-metal007-AB.png,blockpics
67a98836d14f19965b60d1c9,1390,html-button-response,9,167009,0,66b30d310ddfa04ca4274bf1,676a5c1061b4a84202022a46,67a9870009e9bc04b7ea5ad9,0,0,,<p style='color:green; font-size:22px; font-weight:bold;'>✅ Correct!</p>\n               <p style='font-size:18px; color:#333;'>Remember: Move the slider <strong>left</strong> for simple objects.</p>,
67a98836d14f19965b60d1cb,5726,image-slider-response,14,194327,0,66b30d310ddfa04ca4274bf1,676a5c1061b4a84202022a46,67a9870009e9bc04b7ea5ad9,0,81,list4/11-34-9-fabric05-AB.png,list4/11-34-9-fabric05-AB.png,blockpics
67a98836d14f19965b60d1cd,6273,image-slider-response,13,188599,0,66b30d310ddfa04ca4274bf1,676a5c1061b4a84202022a46,67a9870009e9bc04b7ea5ad9,0,86,list4/12-87-7-corrugatedsteel-A.png,list4/12-87-7-corrugatedsteel-A.png,blockpics
67a98836d14f19965b60d1cf,6168,image-slider-response,15,200496,0,66b30d310ddfa04ca4274bf1,676a5c1061b4a84202022a46,67a9870009e9bc04b7ea5ad9,0,85,list4/14-59-9-007-AB.png,list4/14-59-9-007-AB.png,blockpics
67a98836d14f19965b60d1d1,4547,image-slider-response,16,205045,0,66b30d310ddfa04ca4274bf1,676a5c1061b4a84202022a46,67a9870009e9bc04b7ea5ad9,0,85,list4/15- 2021-10-074- A.png,list4/15- 2021-10-074- A.png,blockpics
67a98836d14f19965b60d1d3,3817,image-slider-response,17,208863,0,66b30d310ddfa04ca4274bf1,676a5c1061b4a84202022a46,67a9870009e9bc04b7ea5ad9,0,86,list4/18-1022-2-corrugatedsteel-A.png,list4/18-1022-2-corrugatedsteel-A.png,blockpics
67a98836d14f19965b60d1d5,4211,image-slider-response,18,213074,0,66b30d310ddfa04ca4274bf1,676a5c1061b4a84202022a46,67a9870009e9bc04b7ea5ad9,0,77,list4/6-1017-5-corrugatedsteel-A.png,list4/6-1017-5-corrugatedsteel-A.png,blockpics
67a98836d14f19965b60d1d7,3944,image-slider-response,20,220366,0,66b30d310ddfa04ca4274bf1,676a5c1061b4a84202022a46,67a9870009e9bc04b7ea5ad9,0,93,list4/5-13-9-fabric05-AB.png,list4/5-13-9-fabric05-AB.png,blockpics
67a98836d14f19965b60d1db,3379,image-slider-response,21,223746,0,66b30d310ddfa04ca4274bf1,676a5c1061b4a84202022a46,67a9870009e9bc04b7ea5ad9,0,84,list4/19-1024-4-printedmaterial007-A.png,list4/19-1024-4-printedmaterial007-A.png,blockpics
67a98836d14f19965b60d1df,3608,image-slider-response,23,230903,0,66b30d310ddfa04ca4274bf1,676a5c1061b4a84202022a46,67a9870009e9bc04b7ea5ad9,0,77,list4/21-82-9-031-AB.png,list4/21-82-9-031-AB.png,blockpics
67a98836d14f19965b60d1e1,3009,image-slider-response,24,233913,0,66b30d310ddfa04ca4274bf1,676a5c1061b4a84202022a46,67a9870009e9bc04b7ea5ad9,0,83,list4/17-224-12-fabric05-AB.png,list4/17-224-12-fabric05-AB.png,blockpics
67a98836d14f19965b60d1dd,3546,image-slider-response,22,227294,0,66b30d310ddfa04ca4274bf1,676a5c1061b4a84202022a46,67a9870009e9bc04b7ea5ad9,0,86,list4/29-17-7-fabric05-AB.png,list4/29-17-7-fabric05-AB.png,blockpics
67a98836d14f19965b60d1d9,3346,image-slider-response,19,216421,0,66b30d310ddfa04ca4274bf1,676a5c1061b4a84202022a46,67a9870009e9bc04b7ea5ad9,0,82,list4/7-15-8-printedmaterial007-A.png,list4/7-15-8-printedmaterial007-A.png,blockpics
67c2240bd14f19965b60d1e3,2313,instructions,0,2314,0,6609ce676b18122a911436dd,676a5c1061b4a84202022a46,67c2237909fbfc1e1f3ca3af,0,,,,
67c2240bd14f19965b60d1e5,8751,instructions,1,11066,0,6609ce676b18122a911436dd,676a5c1061b4a84202022a46,67c2237909fbfc1e1f3ca3af,0,,,,
67c2240bd14f19965b60d1e7,4382,image-slider-response,2,15450,0,6609ce676b18122a911436dd,676a5c1061b4a84202022a46,67c2237909fbfc1e1f3ca3af,0,10,square.png,square.png,practice block
67c2240bd14f19965b60d1e9,1429,html-button-response,3,16880,0,6609ce676b18122a911436dd,676a5c1061b4a84202022a46,67c2237909fbfc1e1f3ca3af,0,0,,<p style='color:green; font-size:22px; font-weight:bold;'>✅ Correct!</p>\n               <p style='font-size:18px; color:#333;'>Remember: Move the slider <strong>left</strong> for simple objects.</p>,
67c2240bd14f19965b60d1eb,5453,image-slider-response,6,26238,0,6609ce676b18122a911436dd,676a5c1061b4a84202022a46,67c2237909fbfc1e1f3ca3af,0,83,concave.png,concave.png,practice block
67c2240bd14f19965b60d1ed,2815,image-slider-response,4,19696,0,6609ce676b18122a911436dd,676a5c1061b4a84202022a46,67c2237909fbfc1e1f3ca3af,0,64,heptagon.png,heptagon.png,practice block
67c2240cd14f19965b60d1ef,951,html-button-response,7,27190,0,6609ce676b18122a911436dd,676a5c1061b4a84202022a46,67c2237909fbfc1e1f3ca3af,0,0,,<p style='color:green; font-size:22px; font-weight:bold;'>✅ Correct!</p>\n               <p style='font-size:18px; color:#333;'>Remember: Move the slider <strong>right</strong> for complex objects.</p>,
67c2240cd14f19965b60d1f1,1087,html-button-response,5,20784,0,6609ce676b18122a911436dd,676a5c1061b4a84202022a46,67c2237909fbfc1e1f3ca3af,0,0,,<p style='color:green; font-size:22px; font-weight:bold;'>✅ Correct!</p>\n               <p style='font-size:18px; color:#333;'>Remember: Move the slider <strong>right</strong> for complex objects.</p>,
67c2240cd14f19965b60d1f3,2263,image-slider-response,8,29453,0,6609ce676b18122a911436dd,676a5c1061b4a84202022a46,67c2237909fbfc1e1f3ca3af,0,9,circle.png,circle.png,practice block
67c2240cd14f19965b60d1f5,1038,html-button-response,9,30492,0,6609ce676b18122a911436dd,676a5c1061b4a84202022a46,67c2237909fbfc1e1f3ca3af,0,0,,<p style='color:green; font-size:22px; font-weight:bold;'>✅ Correct!</p>\n               <p style='font-size:18px; color:#333;'>Remember: Move the slider <strong>left</strong> for simple objects.</p>,
67c2240cd14f19965b60d1f7,994,instructions,10,31486,0,6609ce676b18122a911436dd,676a5c1061b4a84202022a46,67c2237909fbfc1e1f3ca3af,0,,,,
67c2240cd14f19965b60d1f9,3477,image-slider-response,11,34964,0,6609ce676b18122a911436dd,676a5c1061b4a84202022a46,67c2237909fbfc1e1f3ca3af,0,92,list3/24-32-3-fabric05-AB.png,list3/24-32-3-fabric05-AB.png,blockpics
67c2240cd14f19965b60d1fb,3495,image-slider-response,12,38460,0,6609ce676b18122a911436dd,676a5c1061b4a84202022a46,67c2237909fbfc1e1f3ca3af,0,91,list3/7-15-8-corrugatedsteel-A.png,list3/7-15-8-corrugatedsteel-A.png,blockpics
67c2240cd14f19965b60d1fd,3009,image-slider-response,13,41470,0,6609ce676b18122a911436dd,676a5c1061b4a84202022a46,67c2237909fbfc1e1f3ca3af,0,91,list3/23-69-16-031-AB.png,list3/23-69-16-031-AB.png,blockpics
67c2240cd14f19965b60d1ff,3425,image-slider-response,14,44896,0,6609ce676b18122a911436dd,676a5c1061b4a84202022a46,67c2237909fbfc1e1f3ca3af,0,78,list3/12-87-7-fabric05-AB.png,list3/12-87-7-fabric05-AB.png,blockpics
67c2240cd14f19965b60d201,2677,image-slider-response,15,47574,0,6609ce676b18122a911436dd,676a5c1061b4a84202022a46,67c2237909fbfc1e1f3ca3af,0,76,list3/11-34-9-031-AB.png,list3/11-34-9-031-AB.png,blockpics
67c2240cd14f19965b60d203,2978,image-slider-response,16,50552,0,6609ce676b18122a911436dd,676a5c1061b4a84202022a46,67c2237909fbfc1e1f3ca3af,0,61,list3/29-17-7-031-AB.png,list3/29-17-7-031-AB.png,blockpics
67c2240cd14f19965b60d205,3171,image-slider-response,17,53724,0,6609ce676b18122a911436dd,676a5c1061b4a84202022a46,67c2237909fbfc1e1f3ca3af,0,82,list3/28-2000-7-074-AB.png,list3/28-2000-7-074-AB.png,blockpics
67c2240cd14f19965b60d207,3295,image-slider-response,19,59902,0,6609ce676b18122a911436dd,676a5c1061b4a84202022a46,67c2237909fbfc1e1f3ca3af,0,74,list3/4-68-9-031-AB.png,list3/4-68-9-031-AB.png,blockpics
67c2240cd14f19965b60d209,2881,image-slider-response,18,56606,0,6609ce676b18122a911436dd,676a5c1061b4a84202022a46,67c2237909fbfc1e1f3ca3af,0,63,list3/30-38-4-fabric05-AB.png,list3/30-38-4-fabric05-AB.png,blockpics
67c2240cd14f19965b60d20b,3271,image-slider-response,20,63174,0,6609ce676b18122a911436dd,676a5c1061b4a84202022a46,67c2237909fbfc1e1f3ca3af,0,89,list3/22-89-13-074-AB.png,list3/22-89-13-074-AB.png,blockpics
67c2240cd14f19965b60d20d,2493,image-slider-response,21,65668,0,6609ce676b18122a911436dd,676a5c1061b4a84202022a46,67c2237909fbfc1e1f3ca3af,0,64,list3/9-27-9-007-AB.png,list3/9-27-9-007-AB.png,blockpics
67c2240cd14f19965b60d20f,3648,image-slider-response,22,69316,0,6609ce676b18122a911436dd,676a5c1061b4a84202022a46,67c2237909fbfc1e1f3ca3af,0,65,list3/10-3-8-074-AB.png,list3/10-3-8-074-AB.png,blockpics
67c2240cd14f19965b60d211,2941,image-slider-response,23,72257,0,6609ce676b18122a911436dd,676a5c1061b4a84202022a46,67c2237909fbfc1e1f3ca3af,0,66,list3/15- 2021-10-007- A.png,list3/15- 2021-10-007- A.png,blockpics
67c2240cd14f19965b60d213,2842,image-slider-response,24,75100,0,6609ce676b18122a911436dd,676a5c1061b4a84202022a46,67c2237909fbfc1e1f3ca3af,0,61,list3/2-42-5-printedmaterial007-A.png,list3/2-42-5-printedmaterial007-A.png,blockpics
67c2240cd14f19965b60d215,3483,image-slider-response,25,78584,0,6609ce676b18122a911436dd,676a5c1061b4a84202022a46,67c2237909fbfc1e1f3ca3af,0,54,list3/1-1016-1-corrugated steel-AB.png,list3/1-1016-1-corrugated steel-AB.png,blockpics
67c2240cd14f19965b60d217,3165,image-slider-response,26,81750,0,6609ce676b18122a911436dd,676a5c1061b4a84202022a46,67c2237909fbfc1e1f3ca3af,0,66,list3/17-224-12-031-AB.png,list3/17-224-12-031-AB.png,blockpics
67c2240cd14f19965b60d219,3605,image-slider-response,27,85355,0,6609ce676b18122a911436dd,676a5c1061b4a84202022a46,67c2237909fbfc1e1f3ca3af,0,60,list3/26-276-3-printedmaterial007-A.png,list3/26-276-3-printedmaterial007-A.png,blockpics
67c2240cd14f19965b60d21b,2954,image-slider-response,28,88310,0,6609ce676b18122a911436dd,676a5c1061b4a84202022a46,67c2237909fbfc1e1f3ca3af,0,61,list3/6-1017-5-fabric05-AB.png,list3/6-1017-5-fabric05-AB.png,blockpics
67c2240cd14f19965b60d21d,3071,image-slider-response,29,91382,0,6609ce676b18122a911436dd,676a5c1061b4a84202022a46,67c2237909fbfc1e1f3ca3af,0,71,list3/20-64-6-printedmaterial007-A.png,list3/20-64-6-printedmaterial007-A.png,blockpics
67c2240cd14f19965b60d21f,3311,image-slider-response,30,94694,0,6609ce676b18122a911436dd,676a5c1061b4a84202022a46,67c2237909fbfc1e1f3ca3af,0,68,list3/21-82-9-metal007-AB.png,list3/21-82-9-metal007-AB.png,blockpics
67c2240cd14f19965b60d221,3455,image-slider-response,31,98150,0,6609ce676b18122a911436dd,676a5c1061b4a84202022a46,67c2237909fbfc1e1f3ca3af,0,76,list3/25-4-5-corrguatedsteel-A.png,list3/25-4-5-corrguatedsteel-A.png,blockpics
67c2240cd14f19965b60d223,2995,image-slider-response,32,101146,0,6609ce676b18122a911436dd,676a5c1061b4a84202022a46,67c2237909fbfc1e1f3ca3af,0,65,list3/3-1016-6-printedmaterial007-AB.png,list3/3-1016-6-printedmaterial007-AB.png,blockpics
67c2240cd14f19965b60d225,3199,image-slider-response,33,104346,0,6609ce676b18122a911436dd,676a5c1061b4a84202022a46,67c2237909fbfc1e1f3ca3af,0,65,list3/18-1022-2-fabric05-AB.png,list3/18-1022-2-fabric05-AB.png,blockpics
67c2240cd14f19965b60d227,7157,image-slider-response,34,111504,0,6609ce676b18122a911436dd,676a5c1061b4a84202022a46,67c2237909fbfc1e1f3ca3af,0,73,list3/5-13-9-074-AB.png,list3/5-13-9-074-AB.png,blockpics
67c2240cd14f19965b60d229,3947,image-slider-response,35,115451,0,6609ce676b18122a911436dd,676a5c1061b4a84202022a46,67c2237909fbfc1e1f3ca3af,0,68,list3/13-57-6-corrugatedsteel-A.png,list3/13-57-6-corrugatedsteel-A.png,blockpics
67c2240cd14f19965b60d22b,3094,image-slider-response,36,118546,0,6609ce676b18122a911436dd,676a5c1061b4a84202022a46,67c2237909fbfc1e1f3ca3af,0,70,list3/27-5-5-metal007-AB.png,list3/27-5-5-metal007-AB.png,blockpics
67c2240cd14f19965b60d22d,3557,image-slider-response,37,122103,0,6609ce676b18122a911436dd,676a5c1061b4a84202022a46,67c2237909fbfc1e1f3ca3af,0,80,list3/16-53-11-074-AB.png,list3/16-53-11-074-AB.png,blockpics
67c2240cd14f19965b60d22f,2918,image-slider-response,38,125022,0,6609ce676b18122a911436dd,676a5c1061b4a84202022a46,67c2237909fbfc1e1f3ca3af,0,85,list3/19-1024-4-corrugatedsteel-A.png,list3/19-1024-4-corrugatedsteel-A.png,blockpics
67c2240cd14f19965b60d231,3311,image-slider-response,40,131606,0,6609ce676b18122a911436dd,676a5c1061b4a84202022a46,67c2237909fbfc1e1f3ca3af,0,88,list3/8-25-8-printedmaterial007-A.png,list3/8-25-8-printedmaterial007-A.png,blockpics
67c2240cd14f19965b60d233,3271,image-slider-response,39,128294,0,6609ce676b18122a911436dd,676a5c1061b4a84202022a46,67c2237909fbfc1e1f3ca3af,0,83,list3/14-59-9-printedmaterial007-A.png,list3/14-59-9-printedmaterial007-A.png,blockpics
67c2240cd14f19965b60d235,2496,instructions,41,134102,0,6609ce676b18122a911436dd,676a5c1061b4a84202022a46,67c2237909fbfc1e1f3ca3af,0,,,,
67c2263ad14f19965b60d237,7659,instructions,0,7663,0,678c0dc1b5ffc027fc22b445,676a5c1061b4a84202022a46,67c2253695f350590075bf5a,0,,,,
67c2263ad14f19965b60d239,20267,instructions,1,27934,0,678c0dc1b5ffc027fc22b445,676a5c1061b4a84202022a46,67c2253695f350590075bf5a,0,,,,
67c2263bd14f19965b60d23b,9713,image-slider-response,2,37658,0,678c0dc1b5ffc027fc22b445,676a5c1061b4a84202022a46,67c2253695f350590075bf5a,0,65,concave.png,concave.png,practice block
67c2263bd14f19965b60d23d,4892,image-slider-response,4,47270,0,678c0dc1b5ffc027fc22b445,676a5c1061b4a84202022a46,67c2253695f350590075bf5a,0,0,circle.png,circle.png,practice block
67c2263bd14f19965b60d23f,4713,html-button-response,3,42375,0,678c0dc1b5ffc027fc22b445,676a5c1061b4a84202022a46,67c2253695f350590075bf5a,0,0,,<p style='color:green; font-size:22px; font-weight:bold;'>✅ Correct!</p>\n               <p style='font-size:18px; color:#333;'>Remember: Move the slider <strong>right</strong> for complex objects.</p>,
67c2263bd14f19965b60d241,2314,html-button-response,5,49586,0,678c0dc1b5ffc027fc22b445,676a5c1061b4a84202022a46,67c2253695f350590075bf5a,0,0,,<p style='color:green; font-size:22px; font-weight:bold;'>✅ Correct!</p>\n               <p style='font-size:18px; color:#333;'>Remember: Move the slider <strong>left</strong> for simple objects.</p>,
67c2263bd14f19965b60d243,3900,image-slider-response,6,53489,0,678c0dc1b5ffc027fc22b445,676a5c1061b4a84202022a46,67c2253695f350590075bf5a,0,100,heptagon.png,heptagon.png,practice block
67c2263bd14f19965b60d245,1305,html-button-response,7,54797,0,678c0dc1b5ffc027fc22b445,676a5c1061b4a84202022a46,67c2253695f350590075bf5a,0,0,,<p style='color:green; font-size:22px; font-weight:bold;'>✅ Correct!</p>\n               <p style='font-size:18px; color:#333;'>Remember: Move the slider <strong>right</strong> for complex objects.</p>,
67c2263bd14f19965b60d247,2992,image-slider-response,8,57793,0,678c0dc1b5ffc027fc22b445,676a5c1061b4a84202022a46,67c2253695f350590075bf5a,0,0,square.png,square.png,practice block
67c2263bd14f19965b60d249,6348,image-slider-response,14,88151,0,678c0dc1b5ffc027fc22b445,676a5c1061b4a84202022a46,67c2253695f350590075bf5a,0,100,list4/5-13-9-fabric05-AB.png,list4/5-13-9-fabric05-AB.png,blockpics
67c2263bd14f19965b60d24b,7514,image-slider-response,12,74878,0,678c0dc1b5ffc027fc22b445,676a5c1061b4a84202022a46,67c2253695f350590075bf5a,0,100,list4/30-38-4-corrugatedsteel-A.png,list4/30-38-4-corrugatedsteel-A.png,blockpics
67c2263bd14f19965b60d24d,6917,image-slider-response,13,81799,0,678c0dc1b5ffc027fc22b445,676a5c1061b4a84202022a46,67c2253695f350590075bf5a,0,100,list4/10-3-8-031-AB.png,list4/10-3-8-031-AB.png,blockpics
67c2263bd14f19965b60d24f,8541,image-slider-response,15,96696,0,678c0dc1b5ffc027fc22b445,676a5c1061b4a84202022a46,67c2253695f350590075bf5a,0,100,list4/24-32-3-corrugatedsteel-A.png,list4/24-32-3-corrugatedsteel-A.png,blockpics
67c2263bd14f19965b60d251,5243,image-slider-response,16,101943,0,678c0dc1b5ffc027fc22b445,676a5c1061b4a84202022a46,67c2253695f350590075bf5a,0,0,list4/1-1016-1-paintedmetal007-AB.png,list4/1-1016-1-paintedmetal007-AB.png,blockpics
67c2263bd14f19965b60d253,6544,image-slider-response,17,108491,0,678c0dc1b5ffc027fc22b445,676a5c1061b4a84202022a46,67c2253695f350590075bf5a,0,100,list4/22-89-13-031-AB.png,list4/22-89-13-031-AB.png,blockpics
67c2263bd14f19965b60d255,4502,image-slider-response,18,113000,0,678c0dc1b5ffc027fc22b445,676a5c1061b4a84202022a46,67c2253695f350590075bf5a,0,100,list4/15- 2021-10-074- A.png,list4/15- 2021-10-074- A.png,blockpics
67c2263bd14f19965b60d257,5954,image-slider-response,19,118958,0,678c0dc1b5ffc027fc22b445,676a5c1061b4a84202022a46,67c2253695f350590075bf5a,0,100,list4/4-68-9-074-AB.png,list4/4-68-9-074-AB.png,blockpics
67c2263bd14f19965b60d259,5398,image-slider-response,20,124360,0,678c0dc1b5ffc027fc22b445,676a5c1061b4a84202022a46,67c2253695f350590075bf5a,0,100,list4/16-53-11-031-AB.png,list4/16-53-11-031-AB.png,blockpics
67c2263bd14f19965b60d25b,6298,image-slider-response,11,67359,0,678c0dc1b5ffc027fc22b445,676a5c1061b4a84202022a46,67c2253695f350590075bf5a,0,100,list4/6-1017-5-corrugatedsteel-A.png,list4/6-1017-5-corrugatedsteel-A.png,blockpics
67c2263bd14f19965b60d25d,1263,html-button-response,9,59061,0,678c0dc1b5ffc027fc22b445,676a5c1061b4a84202022a46,67c2253695f350590075bf5a,0,0,,<p style='color:green; font-size:22px; font-weight:bold;'>✅ Correct!</p>\n               <p style='font-size:18px; color:#333;'>Remember: Move the slider <strong>left</strong> for simple objects.</p>,
67c2263bd14f19965b60d25f,1994,instructions,10,61057,0,678c0dc1b5ffc027fc22b445,676a5c1061b4a84202022a46,67c2253695f350590075bf5a,0,,,,
67c2263bd14f19965b60d261,8782,image-slider-response,21,133146,0,678c0dc1b5ffc027fc22b445,676a5c1061b4a84202022a46,67c2253695f350590075bf5a,0,99,list4/27-5-5-074-AB.png,list4/27-5-5-074-AB.png,blockpics
67c2263bd14f19965b60d263,6535,image-slider-response,22,139684,0,678c0dc1b5ffc027fc22b445,676a5c1061b4a84202022a46,67c2253695f350590075bf5a,0,99,list4/8-25-8-007-AB.png,list4/8-25-8-007-AB.png,blockpics
67c2263bd14f19965b60d265,5264,image-slider-response,23,144952,0,678c0dc1b5ffc027fc22b445,676a5c1061b4a84202022a46,67c2253695f350590075bf5a,0,100,list4/19-1024-4-printedmaterial007-A.png,list4/19-1024-4-printedmaterial007-A.png,blockpics
67c2263bd14f19965b60d267,4294,image-slider-response,24,149250,0,678c0dc1b5ffc027fc22b445,676a5c1061b4a84202022a46,67c2253695f350590075bf5a,0,0,list4/2-42-5-metal007-AB.png,list4/2-42-5-metal007-AB.png,blockpics
67c2263bd14f19965b60d269,4856,image-slider-response,25,154109,0,678c0dc1b5ffc027fc22b445,676a5c1061b4a84202022a46,67c2253695f350590075bf5a,0,99,list4/9-27-9-074-AB.png,list4/9-27-9-074-AB.png,blockpics
67c2263bd14f19965b60d26b,7171,image-slider-response,26,161284,0,678c0dc1b5ffc027fc22b445,676a5c1061b4a84202022a46,67c2253695f350590075bf5a,0,5,list4/13-57-6-printedmaterial007-A.png,list4/13-57-6-printedmaterial007-A.png,blockpics
67c2263bd14f19965b60d26d,5159,image-slider-response,27,166447,0,678c0dc1b5ffc027fc22b445,676a5c1061b4a84202022a46,67c2253695f350590075bf5a,0,95,list4/14-59-9-007-AB.png,list4/14-59-9-007-AB.png,blockpics
67c2263bd14f19965b60d26f,7016,image-slider-response,28,173467,0,678c0dc1b5ffc027fc22b445,676a5c1061b4a84202022a46,67c2253695f350590075bf5a,0,3,list4/25-4-5-printedmaterial007-A.png,list4/25-4-5-printedmaterial007-A.png,blockpics
67c2263bd14f19965b60d271,6467,image-slider-response,29,179937,0,678c0dc1b5ffc027fc22b445,676a5c1061b4a84202022a46,67c2253695f350590075bf5a,0,2,list4/21-82-9-031-AB.png,list4/21-82-9-031-AB.png,blockpics
67c2263bd14f19965b60d273,4984,image-slider-response,30,184924,0,678c0dc1b5ffc027fc22b445,676a5c1061b4a84202022a46,67c2253695f350590075bf5a,0,1,list4/12-87-7-corrugatedsteel-A.png,list4/12-87-7-corrugatedsteel-A.png,blockpics
67c2263bd14f19965b60d275,5860,image-slider-response,31,190788,0,678c0dc1b5ffc027fc22b445,676a5c1061b4a84202022a46,67c2253695f350590075bf5a,0,2,list4/28-2000-7-031-AB.png,list4/28-2000-7-031-AB.png,blockpics
67c2263bd14f19965b60d277,5554,image-slider-response,32,196345,0,678c0dc1b5ffc027fc22b445,676a5c1061b4a84202022a46,67c2253695f350590075bf5a,0,0,list4/3-1016-6-074-AB.png,list4/3-1016-6-074-AB.png,blockpics
67c2263bd14f19965b60d279,6080,image-slider-response,33,202429,0,678c0dc1b5ffc027fc22b445,676a5c1061b4a84202022a46,67c2253695f350590075bf5a,0,17,list4/20-64-6-metal007-AB.png,list4/20-64-6-metal007-AB.png,blockpics
67c2263bd14f19965b60d27b,4287,image-slider-response,34,206719,0,678c0dc1b5ffc027fc22b445,676a5c1061b4a84202022a46,67c2253695f350590075bf5a,0,3,list4/18-1022-2-corrugatedsteel-A.png,list4/18-1022-2-corrugatedsteel-A.png,blockpics
67c2263bd14f19965b60d27d,8992,image-slider-response,36,219965,0,678c0dc1b5ffc027fc22b445,676a5c1061b4a84202022a46,67c2253695f350590075bf5a,0,64,list4/29-17-7-fabric05-AB.png,list4/29-17-7-fabric05-AB.png,blockpics
67c2263bd14f19965b60d27f,4245,image-slider-response,35,210969,0,678c0dc1b5ffc027fc22b445,676a5c1061b4a84202022a46,67c2253695f350590075bf5a,0,2,list4/26-276-3-metal007-AB.png,list4/26-276-3-metal007-AB.png,blockpics
67c2263bd14f19965b60d281,4744,image-slider-response,37,224712,0,678c0dc1b5ffc027fc22b445,676a5c1061b4a84202022a46,67c2253695f350590075bf5a,0,95,list4/11-34-9-fabric05-AB.png,list4/11-34-9-fabric05-AB.png,blockpics
67c2263bd14f19965b60d283,5279,image-slider-response,38,229995,0,678c0dc1b5ffc027fc22b445,676a5c1061b4a84202022a46,67c2253695f350590075bf5a,0,99,list4/23-69-16-fabric05-AB.png,list4/23-69-16-fabric05-AB.png,blockpics
67c2263bd14f19965b60d285,6110,image-slider-response,39,236108,0,678c0dc1b5ffc027fc22b445,676a5c1061b4a84202022a46,67c2253695f350590075bf5a,0,94,list4/7-15-8-printedmaterial007-A.png,list4/7-15-8-printedmaterial007-A.png,blockpics
67c2263bd14f19965b60d287,4899,image-slider-response,40,241010,0,678c0dc1b5ffc027fc22b445,676a5c1061b4a84202022a46,67c2253695f350590075bf5a,0,96,list4/17-224-12-fabric05-AB.png,list4/17-224-12-fabric05-AB.png,blockpics
67c2263bd14f19965b60d289,2362,instructions,41,243374,0,678c0dc1b5ffc027fc22b445,676a5c1061b4a84202022a46,67c2253695f350590075bf5a,0,,,,
67c22d06d14f19965b60d28b,18454,instructions,0,18468,0,661067b66f034aab3e964215,676a5c1061b4a84202022a46,67c22a9d358103b654d18a86,0,,,,
67c22d06d14f19965b60d28d,21244,instructions,1,39724,0,661067b66f034aab3e964215,676a5c1061b4a84202022a46,67c22a9d358103b654d18a86,0,,,,
67c22d06d14f19965b60d28f,65392,image-slider-response,2,105132,0,661067b66f034aab3e964215,676a5c1061b4a84202022a46,67c22a9d358103b654d18a86,0,18,concave.png,concave.png,practice block
67c22d06d14f19965b60d291,8130,html-button-response,3,113270,0,661067b66f034aab3e964215,676a5c1061b4a84202022a46,67c22a9d358103b654d18a86,0,0,,<p style='color:red; font-size:22px; font-weight:bold;'>❌ Oops! Try again.</p>\n               <p style='font-size:18px; color:#333;'>You should slide <strong>right</strong> for complex objects.</p>,
67c22d06d14f19965b60d293,17429,image-slider-response,4,130708,0,661067b66f034aab3e964215,676a5c1061b4a84202022a46,67c22a9d358103b654d18a86,0,0,circle.png,circle.png,practice block
67c22d06d14f19965b60d295,1385,html-button-response,5,132097,0,661067b66f034aab3e964215,676a5c1061b4a84202022a46,67c22a9d358103b654d18a86,0,0,,<p style='color:green; font-size:22px; font-weight:bold;'>✅ Correct!</p>\n               <p style='font-size:18px; color:#333;'>Remember: Move the slider <strong>left</strong> for simple objects.</p>,
67c22d06d14f19965b60d297,10169,image-slider-response,6,142272,0,661067b66f034aab3e964215,676a5c1061b4a84202022a46,67c22a9d358103b654d18a86,0,100,heptagon.png,heptagon.png,practice block
67c22d06d14f19965b60d299,1436,html-button-response,7,143714,0,661067b66f034aab3e964215,676a5c1061b4a84202022a46,67c22a9d358103b654d18a86,0,0,,<p style='color:green; font-size:22px; font-weight:bold;'>✅ Correct!</p>\n               <p style='font-size:18px; color:#333;'>Remember: Move the slider <strong>right</strong> for complex objects.</p>,
67c22d06d14f19965b60d29b,9876,image-slider-response,8,153597,0,661067b66f034aab3e964215,676a5c1061b4a84202022a46,67c22a9d358103b654d18a86,0,0,square.png,square.png,practice block
67c22d06d14f19965b60d29d,1750,html-button-response,9,155352,0,661067b66f034aab3e964215,676a5c1061b4a84202022a46,67c22a9d358103b654d18a86,0,0,,<p style='color:green; font-size:22px; font-weight:bold;'>✅ Correct!</p>\n               <p style='font-size:18px; color:#333;'>Remember: Move the slider <strong>left</strong> for simple objects.</p>,
67c22d06d14f19965b60d29f,2813,instructions,10,158170,0,661067b66f034aab3e964215,676a5c1061b4a84202022a46,67c22a9d358103b654d18a86,0,,,,
67c22d06d14f19965b60d2a1,19916,image-slider-response,11,178093,0,661067b66f034aab3e964215,676a5c1061b4a84202022a46,67c22a9d358103b654d18a86,0,100,list2/2-42-5-corrugatedsteel-A.png,list2/2-42-5-corrugatedsteel-A.png,blockpics
67c22d06d14f19965b60d2a3,14450,image-slider-response,12,192552,0,661067b66f034aab3e964215,676a5c1061b4a84202022a46,67c22a9d358103b654d18a86,0,100,list2/20-64-6-corrugatedsteel-A.png,list2/20-64-6-corrugatedsteel-A.png,blockpics
67c22d06d14f19965b60d2a5,16797,image-slider-response,13,209356,0,661067b66f034aab3e964215,676a5c1061b4a84202022a46,67c22a9d358103b654d18a86,0,100,list2/9-27-9-printedmaterial007-A.png,list2/9-27-9-printedmaterial007-A.png,blockpics
67c22d06d14f19965b60d2a7,15759,image-slider-response,14,225123,0,661067b66f034aab3e964215,676a5c1061b4a84202022a46,67c22a9d358103b654d18a86,0,89,list2/1-1016-1-fabric05-AB.png,list2/1-1016-1-fabric05-AB.png,blockpics
67c22d06d14f19965b60d2a9,20113,image-slider-response,15,245243,0,661067b66f034aab3e964215,676a5c1061b4a84202022a46,67c22a9d358103b654d18a86,0,100,list2/25-4-5-fabric05-AB.png,list2/25-4-5-fabric05-AB.png,blockpics
67c22d06d14f19965b60d2ab,12087,image-slider-response,16,257340,0,661067b66f034aab3e964215,676a5c1061b4a84202022a46,67c22a9d358103b654d18a86,0,100,list2/21-82-9-printedmaterial007-A.png,list2/21-82-9-printedmaterial007-A.png,blockpics
67c22d06d14f19965b60d2ad,8280,image-slider-response,17,265626,0,661067b66f034aab3e964215,676a5c1061b4a84202022a46,67c22a9d358103b654d18a86,0,26,list2/15- 2021-10-printedmaterial 007- AB.png,list2/15- 2021-10-printedmaterial 007- AB.png,blockpics
67c22d06d14f19965b60d2af,9807,image-slider-response,18,275440,0,661067b66f034aab3e964215,676a5c1061b4a84202022a46,67c22a9d358103b654d18a86,0,100,list2/28-2000-7-metal007-AB.png,list2/28-2000-7-metal007-AB.png,blockpics
67c22d06d14f19965b60d2b1,11599,image-slider-response,19,287045,0,661067b66f034aab3e964215,676a5c1061b4a84202022a46,67c22a9d358103b654d18a86,0,100,list2/17-224-12-074-AB.png,list2/17-224-12-074-AB.png,blockpics
67c22d06d14f19965b60d2b3,9666,image-slider-response,20,296716,0,661067b66f034aab3e964215,676a5c1061b4a84202022a46,67c22a9d358103b654d18a86,0,100,list2/14-59-9-corrugatedsteel-A.png,list2/14-59-9-corrugatedsteel-A.png,blockpics
67c22d06d14f19965b60d2b5,10517,image-slider-response,21,307238,0,661067b66f034aab3e964215,676a5c1061b4a84202022a46,67c22a9d358103b654d18a86,0,100,list2/18-1022-2-031-AB.png,list2/18-1022-2-031-AB.png,blockpics
67c22d06d14f19965b60d2b7,13607,image-slider-response,22,320851,0,661067b66f034aab3e964215,676a5c1061b4a84202022a46,67c22a9d358103b654d18a86,0,100,list2/7-15-8-fabric05-AB.png,list2/7-15-8-fabric05-AB.png,blockpics
67c22d06d14f19965b60d2b9,11625,image-slider-response,23,332482,0,661067b66f034aab3e964215,676a5c1061b4a84202022a46,67c22a9d358103b654d18a86,0,100,list2/8-25-8-corrugatedsteel-A.png,list2/8-25-8-corrugatedsteel-A.png,blockpics
67c22d06d14f19965b60d2bb,11165,image-slider-response,24,343654,0,661067b66f034aab3e964215,676a5c1061b4a84202022a46,67c22a9d358103b654d18a86,0,100,list2/16-53-11-metal007-AB.png,list2/16-53-11-metal007-AB.png,blockpics
67c22d06d14f19965b60d2bd,10249,image-slider-response,25,353909,0,661067b66f034aab3e964215,676a5c1061b4a84202022a46,67c22a9d358103b654d18a86,0,100,list2/30-38-4-031-AB.png,list2/30-38-4-031-AB.png,blockpics
67c22d06d14f19965b60d2bf,12179,image-slider-response,26,366092,0,661067b66f034aab3e964215,676a5c1061b4a84202022a46,67c22a9d358103b654d18a86,0,100,list2/12-87-7-031-AB.png,list2/12-87-7-031-AB.png,blockpics
67c22d06d14f19965b60d2c1,14868,image-slider-response,27,380967,0,661067b66f034aab3e964215,676a5c1061b4a84202022a46,67c22a9d358103b654d18a86,0,84,list2/26-276-3-corrugatedsteel-A.png,list2/26-276-3-corrugatedsteel-A.png,blockpics
67c22d06d14f19965b60d2c3,15047,image-slider-response,28,396021,0,661067b66f034aab3e964215,676a5c1061b4a84202022a46,67c22a9d358103b654d18a86,0,100,list2/4-68-9-metal007-AB.png,list2/4-68-9-metal007-AB.png,blockpics
67c22d06d14f19965b60d2c5,20042,image-slider-response,29,416069,0,661067b66f034aab3e964215,676a5c1061b4a84202022a46,67c22a9d358103b654d18a86,0,100,list2/23-69-16-074-AB.png,list2/23-69-16-074-AB.png,blockpics
67c22d06d14f19965b60d2c7,13796,image-slider-response,30,429873,0,661067b66f034aab3e964215,676a5c1061b4a84202022a46,67c22a9d358103b654d18a86,0,100,list2/10-3-8-metal007-AB.png,list2/10-3-8-metal007-AB.png,blockpics
67c2306ad14f19965b60d2c9,5285,instructions,0,5288,0,66f5d2424e2c1948e2b8f020,676a5c1061b4a84202022a46,67c22d807513e370259c9cb6,0,,,,
67c2306ad14f19965b60d2cb,6374,image-slider-response,2,28298,0,66f5d2424e2c1948e2b8f020,676a5c1061b4a84202022a46,67c22d807513e370259c9cb6,0,6,circle.png,circle.png,practice block
67c2306ad14f19965b60d2cd,16631,instructions,1,21920,0,66f5d2424e2c1948e2b8f020,676a5c1061b4a84202022a46,67c22d807513e370259c9cb6,0,,,,
67c2306ad14f19965b60d2cf,2463,html-button-response,5,39362,0,66f5d2424e2c1948e2b8f020,676a5c1061b4a84202022a46,67c22d807513e370259c9cb6,0,0,,<p style='color:green; font-size:22px; font-weight:bold;'>✅ Correct!</p>\n               <p style='font-size:18px; color:#333;'>Remember: Move the slider <strong>left</strong> for simple objects.</p>,
67c2306ad14f19965b60d2d1,4424,image-slider-response,4,36898,0,66f5d2424e2c1948e2b8f020,676a5c1061b4a84202022a46,67c22d807513e370259c9cb6,0,0,square.png,square.png,practice block
67c2306ad14f19965b60d2d3,4173,html-button-response,3,32472,0,66f5d2424e2c1948e2b8f020,676a5c1061b4a84202022a46,67c22d807513e370259c9cb6,0,0,,<p style='color:green; font-size:22px; font-weight:bold;'>✅ Correct!</p>\n               <p style='font-size:18px; color:#333;'>Remember: Move the slider <strong>left</strong> for simple objects.</p>,
67c2306ad14f19965b60d2d5,3803,image-slider-response,6,43166,0,66f5d2424e2c1948e2b8f020,676a5c1061b4a84202022a46,67c22d807513e370259c9cb6,0,0,heptagon.png,heptagon.png,practice block
67c2306ad14f19965b60d2d7,2316,html-button-response,7,45482,0,66f5d2424e2c1948e2b8f020,676a5c1061b4a84202022a46,67c22d807513e370259c9cb6,0,0,,<p style='color:red; font-size:22px; font-weight:bold;'>❌ Oops! Try again.</p>\n               <p style='font-size:18px; color:#333;'>You should slide <strong>right</strong> for complex objects.</p>,
67c2306ad14f19965b60d2d9,4251,image-slider-response,8,49734,0,66f5d2424e2c1948e2b8f020,676a5c1061b4a84202022a46,67c22d807513e370259c9cb6,0,92,concave.png,concave.png,practice block
67c2306ad14f19965b60d2db,1763,instructions,10,53883,0,66f5d2424e2c1948e2b8f020,676a5c1061b4a84202022a46,67c22d807513e370259c9cb6,0,,,,
67c2306ad14f19965b60d2dd,5109,image-slider-response,11,58994,0,66f5d2424e2c1948e2b8f020,676a5c1061b4a84202022a46,67c22d807513e370259c9cb6,0,88,list2/3-1016-6-printedmaterial007-A.png,list2/3-1016-6-printedmaterial007-A.png,blockpics
67c2306ad14f19965b60d2df,2385,html-button-response,9,52120,0,66f5d2424e2c1948e2b8f020,676a5c1061b4a84202022a46,67c22d807513e370259c9cb6,0,0,,<p style='color:green; font-size:22px; font-weight:bold;'>✅ Correct!</p>\n               <p style='font-size:18px; color:#333;'>Remember: Move the slider <strong>right</strong> for complex objects.</p>,
67c2306ad14f19965b60d2e1,5495,image-slider-response,12,64489,0,66f5d2424e2c1948e2b8f020,676a5c1061b4a84202022a46,67c22d807513e370259c9cb6,0,99,list2/13-57-6-fabric05-AB.png,list2/13-57-6-fabric05-AB.png,blockpics
67c2306ad14f19965b60d2e3,4377,image-slider-response,13,68868,0,66f5d2424e2c1948e2b8f020,676a5c1061b4a84202022a46,67c22d807513e370259c9cb6,0,100,list2/4-68-9-metal007-AB.png,list2/4-68-9-metal007-AB.png,blockpics
67c2306ad14f19965b60d2e5,5328,image-slider-response,16,98625,0,66f5d2424e2c1948e2b8f020,676a5c1061b4a84202022a46,67c22d807513e370259c9cb6,0,94,list2/25-4-5-fabric05-AB.png,list2/25-4-5-fabric05-AB.png,blockpics
67c2306ad14f19965b60d2e7,17293,image-slider-response,15,93296,0,66f5d2424e2c1948e2b8f020,676a5c1061b4a84202022a46,67c22d807513e370259c9cb6,0,56,list2/22-89-13-metal007-AB.png,list2/22-89-13-metal007-AB.png,blockpics
67c2306ad14f19965b60d2e9,7133,image-slider-response,14,76002,0,66f5d2424e2c1948e2b8f020,676a5c1061b4a84202022a46,67c22d807513e370259c9cb6,0,100,list2/28-2000-7-metal007-AB.png,list2/28-2000-7-metal007-AB.png,blockpics
67c2306ad14f19965b60d2eb,7471,image-slider-response,17,106097,0,66f5d2424e2c1948e2b8f020,676a5c1061b4a84202022a46,67c22d807513e370259c9cb6,0,100,list2/23-69-16-074-AB.png,list2/23-69-16-074-AB.png,blockpics
67c2306ad14f19965b60d2ed,5189,image-slider-response,18,111287,0,66f5d2424e2c1948e2b8f020,676a5c1061b4a84202022a46,67c22d807513e370259c9cb6,0,100,list2/21-82-9-printedmaterial007-A.png,list2/21-82-9-printedmaterial007-A.png,blockpics
67c2306ad14f19965b60d2ef,5015,image-slider-response,19,116303,0,66f5d2424e2c1948e2b8f020,676a5c1061b4a84202022a46,67c22d807513e370259c9cb6,0,100,list2/11-34-9-074-AB.png,list2/11-34-9-074-AB.png,blockpics
67c2306bd14f19965b60d2f1,5023,image-slider-response,20,121327,0,66f5d2424e2c1948e2b8f020,676a5c1061b4a84202022a46,67c22d807513e370259c9cb6,0,100,list2/15- 2021-10-printedmaterial 007- AB.png,list2/15- 2021-10-printedmaterial 007- AB.png,blockpics
67c2306bd14f19965b60d2f3,5511,image-slider-response,23,138455,0,66f5d2424e2c1948e2b8f020,676a5c1061b4a84202022a46,67c22d807513e370259c9cb6,0,100,list2/6-1017-5-031-AB.png,list2/6-1017-5-031-AB.png,blockpics
67c2306bd14f19965b60d2f5,6701,image-slider-response,21,128029,0,66f5d2424e2c1948e2b8f020,676a5c1061b4a84202022a46,67c22d807513e370259c9cb6,0,82,list2/1-1016-1-fabric05-AB.png,list2/1-1016-1-fabric05-AB.png,blockpics
67c2306bd14f19965b60d2f7,4913,image-slider-response,22,132943,0,66f5d2424e2c1948e2b8f020,676a5c1061b4a84202022a46,67c22d807513e370259c9cb6,0,100,list2/8-25-8-corrugatedsteel-A.png,list2/8-25-8-corrugatedsteel-A.png,blockpics
67c2306bd14f19965b60d2f9,22957,image-slider-response,24,161413,0,66f5d2424e2c1948e2b8f020,676a5c1061b4a84202022a46,67c22d807513e370259c9cb6,0,100,list2/5-13-9-031-AB.png,list2/5-13-9-031-AB.png,blockpics
67c2306bd14f19965b60d2fb,4701,image-slider-response,25,166115,0,66f5d2424e2c1948e2b8f020,676a5c1061b4a84202022a46,67c22d807513e370259c9cb6,0,100,list2/2-42-5-corrugatedsteel-A.png,list2/2-42-5-corrugatedsteel-A.png,blockpics
67c2306bd14f19965b60d2fd,12221,image-slider-response,30,199337,0,66f5d2424e2c1948e2b8f020,676a5c1061b4a84202022a46,67c22d807513e370259c9cb6,0,100,list2/24-32-3-031-AB.png,list2/24-32-3-031-AB.png,blockpics
67c2306bd14f19965b60d2ff,7031,image-slider-response,26,173147,0,66f5d2424e2c1948e2b8f020,676a5c1061b4a84202022a46,67c22d807513e370259c9cb6,0,100,list2/27-5-5-printedmaterial007-A.png,list2/27-5-5-printedmaterial007-A.png,blockpics
67c2306bd14f19965b60d301,4763,image-slider-response,29,187115,0,66f5d2424e2c1948e2b8f020,676a5c1061b4a84202022a46,67c22d807513e370259c9cb6,0,100,list2/29-17-7-074-AB.png,list2/29-17-7-074-AB.png,blockpics
67c2306bd14f19965b60d303,4393,image-slider-response,28,182351,0,66f5d2424e2c1948e2b8f020,676a5c1061b4a84202022a46,67c22d807513e370259c9cb6,0,100,list2/18-1022-2-031-AB.png,list2/18-1022-2-031-AB.png,blockpics
67c2306bd14f19965b60d305,4809,image-slider-response,27,177957,0,66f5d2424e2c1948e2b8f020,676a5c1061b4a84202022a46,67c22d807513e370259c9cb6,0,100,list2/10-3-8-metal007-AB.png,list2/10-3-8-metal007-AB.png,blockpics
67c2306bd14f19965b60d307,7015,image-slider-response,31,206353,0,66f5d2424e2c1948e2b8f020,676a5c1061b4a84202022a46,67c22d807513e370259c9cb6,0,100,list2/12-87-7-031-AB.png,list2/12-87-7-031-AB.png,blockpics
67c2306bd14f19965b60d309,5047,image-slider-response,32,211401,0,66f5d2424e2c1948e2b8f020,676a5c1061b4a84202022a46,67c22d807513e370259c9cb6,0,100,list2/26-276-3-corrugatedsteel-A.png,list2/26-276-3-corrugatedsteel-A.png,blockpics
67c2306bd14f19965b60d30d,4581,image-slider-response,33,215984,0,66f5d2424e2c1948e2b8f020,676a5c1061b4a84202022a46,67c22d807513e370259c9cb6,0,100,list2/30-38-4-031-AB.png,list2/30-38-4-031-AB.png,blockpics
67c2306bd14f19965b60d30b,4424,image-slider-response,34,220409,0,66f5d2424e2c1948e2b8f020,676a5c1061b4a84202022a46,67c22d807513e370259c9cb6,0,100,list2/7-15-8-fabric05-AB.png,list2/7-15-8-fabric05-AB.png,blockpics
67c2306bd14f19965b60d30f,5195,image-slider-response,35,225605,0,66f5d2424e2c1948e2b8f020,676a5c1061b4a84202022a46,67c22d807513e370259c9cb6,0,100,list2/17-224-12-074-AB.png,list2/17-224-12-074-AB.png,blockpics
67c2306bd14f19965b60d311,6023,image-slider-response,36,231630,0,66f5d2424e2c1948e2b8f020,676a5c1061b4a84202022a46,67c22d807513e370259c9cb6,0,100,list2/16-53-11-metal007-AB.png,list2/16-53-11-metal007-AB.png,blockpics
67c2306bd14f19965b60d313,3768,image-slider-response,37,235399,0,66f5d2424e2c1948e2b8f020,676a5c1061b4a84202022a46,67c22d807513e370259c9cb6,0,100,list2/19-1024-4-fabric05-AB.png,list2/19-1024-4-fabric05-AB.png,blockpics
67c2306bd14f19965b60d315,4307,image-slider-response,39,244203,0,66f5d2424e2c1948e2b8f020,676a5c1061b4a84202022a46,67c22d807513e370259c9cb6,0,100,list2/14-59-9-corrugatedsteel-A.png,list2/14-59-9-corrugatedsteel-A.png,blockpics
67c2306bd14f19965b60d317,4495,image-slider-response,38,239895,0,66f5d2424e2c1948e2b8f020,676a5c1061b4a84202022a46,67c22d807513e370259c9cb6,0,100,list2/9-27-9-printedmaterial007-A.png,list2/9-27-9-printedmaterial007-A.png,blockpics
67c2306bd14f19965b60d319,3236,instructions,41,261487,0,66f5d2424e2c1948e2b8f020,676a5c1061b4a84202022a46,67c22d807513e370259c9cb6,0,,,,
67c2306bd14f19965b60d31b,14047,image-slider-response,40,258251,0,66f5d2424e2c1948e2b8f020,676a5c1061b4a84202022a46,67c22d807513e370259c9cb6,0,97,list2/20-64-6-corrugatedsteel-A.png,list2/20-64-6-corrugatedsteel-A.png,blockpics
67c239e4a2cce84a0099c8d7,5472,instructions,0,5473,0,,,,0,,,,
67c239e4a2cce84a0099c8d9,80376,instructions,1,85849,0,,,,0,,,,
67c239e4a2cce84a0099c8df,91316,image-slider-response,4,189175,0,,,,0,0,circle.png,circle.png,practice block
67c239e4a2cce84a0099c8e1,2732,html-button-response,5,191908,0,,,,0,0,,<p style='font-size:22px;'><strong>You moved the slider way left.</strong></p>\n                <p style='font-size:18px; color:#333;'>That means you think this object is <strong>very simple</strong>.</p>,
67c239e4a2cce84a0099c8e3,15635,image-slider-response,6,207544,0,,,,0,57,concave.png,concave.png,practice block
67c239e4a2cce84a0099c8db,,html-button-response,2,91853,0,,,,0,null,,"\n                    <div style=""position: relative; text-align: center;"">\n                        <img src=""square.png"" style=""height: 200px;"">\n                        <br>\n                        <p style=""font-size: 20px;"">If i think this is a ** slightly simple** shape, I move the slider slightly left.</p>\n                        <div style=""position: relative; width: 300px; margin: auto;"">\n                            <input type=""range"" min=""0"" max=""100"" value=""20"" \n                                disabled style=""width: 100%;"">\n                            <div id=""arrow"" style=""position: absolute; left: 20%; top: -30px;\n                                font-size: 24px; transition: left 1s;"">⬆</div>\n                        </div>\n                    </div>\n                ",
67c239e4a2cce84a0099c8e5,2157,html-button-response,7,209703,0,,,,0,0,,<p style='font-size:22px;'><strong>You moved the slider slightly right.</strong></p>\n                <p style='font-size:18px; color:#333;'>That means you think this object is <strong>slightly complex</strong>.</p>,
67c239e4a2cce84a0099c8dd,,html-button-response,3,97856,0,,,,0,null,,"\n                    <div style=""position: relative; text-align: center;"">\n                        <img src=""heptagon.png"" style=""height: 200px;"">\n                        <br>\n                        <p style=""font-size: 20px;"">If i think this is a **very complex** shape, I move the slider way to the right.</p>\n                        <div style=""position: relative; width: 300px; margin: auto;"">\n                            <input type=""range"" min=""0"" max=""100"" value=""80"" \n                                disabled style=""width: 100%;"">\n                            <div id=""arrow"" style=""position: absolute; left: 80%; top: -30px;\n                                font-size: 24px; transition: left 1s;"">⬆</div>\n                        </div>\n                    </div>\n                ",
67c239e4a2cce84a0099c8e7,4766,instructions,8,214469,0,,,,0,,,,
67c239e4a2cce84a0099c8f1,1648,instructions,17,296303,0,,,,0,,,,
67c239faa2cce84a0099c8f3,6077,instructions,0,6080,0,,,,0,,,,
67c239faa2cce84a0099c8f5,36182,instructions,1,42263,0,,,,0,,,,
67c239faa2cce84a0099c8f7,,html-button-response,2,48267,0,,,,0,null,,"\n                    <div style=""position: relative; text-align: center;"">\n                        <img src=""square.png"" style=""height: 200px;"">\n                        <br>\n                        <p style=""font-size: 20px;"">If i think this is a ** slightly simple** shape, I move the slider slightly left.</p>\n                        <div style=""position: relative; width: 300px; margin: auto;"">\n                            <input type=""range"" min=""0"" max=""100"" value=""20"" \n                                disabled style=""width: 100%;"">\n                            <div id=""arrow"" style=""position: absolute; left: 20%; top: -30px;\n                                font-size: 24px; transition: left 1s;"">⬆</div>\n                        </div>\n                    </div>\n                ",
67c239faa2cce84a0099c8f9,,html-button-response,3,54270,0,,,,0,null,,"\n                    <div style=""position: relative; text-align: center;"">\n                        <img src=""heptagon.png"" style=""height: 200px;"">\n                        <br>\n                        <p style=""font-size: 20px;"">If i think this is a **very complex** shape, I move the slider way to the right.</p>\n                        <div style=""position: relative; width: 300px; margin: auto;"">\n                            <input type=""range"" min=""0"" max=""100"" value=""80"" \n                                disabled style=""width: 100%;"">\n                            <div id=""arrow"" style=""position: absolute; left: 80%; top: -30px;\n                                font-size: 24px; transition: left 1s;"">⬆</div>\n                        </div>\n                    </div>\n                ",
67c239faa2cce84a0099c8fb,18639,image-slider-response,4,72914,0,,,,0,0,circle.png,circle.png,practice block
67c239faa2cce84a0099c8fd,5854,html-button-response,5,78770,0,,,,0,0,,<p style='font-size:22px;'><strong>You moved the slider way left.</strong></p>\n                <p style='font-size:18px; color:#333;'>That means you think this object is <strong>very simple</strong>.</p>,
67c239faa2cce84a0099c8ff,12942,image-slider-response,6,91713,0,,,,0,38,concave.png,concave.png,practice block
67c239faa2cce84a0099c901,23106,html-button-response,7,114819,0,,,,0,0,,<p style='font-size:22px;'><strong>You moved the slider slightly left.</strong></p>\n                <p style='font-size:18px; color:#333;'>That means you think this object is <strong>slightly simple</strong>.</p>,
67c239faa2cce84a0099c903,1497,instructions,8,116316,0,,,,0,,,,
67c239faa2cce84a0099c90d,13886,instructions,17,409936,0,,,,0,,,,
